acceleration_x,acceleration_y,acceleration_z,timestamp
-0.0597381591796875,-0.919189453125,-0.30816650390625,57117.868768500004
-0.0507354736328125,-0.9230804443359375,-0.333465576171875,57117.8887975
-0.0706787109375,-0.8990936279296875,-0.3966522216796875,57117.9088275
-0.089447021484375,-0.88519287109375,-0.4250946044921875,57117.9288575
-0.0966644287109375,-0.890380859375,-0.3802642822265625,57117.9488865
-0.1040496826171875,-0.9030609130859375,-0.354095458984375,57117.9689165
-0.1210174560546875,-0.9115447998046875,-0.3758697509765625,57117.9889465
-0.1494293212890625,-0.9134521484375,-0.409759521484375,57118.0089765
-0.1537322998046875,-0.9081268310546875,-0.4102325439453125,57118.0290055
-0.1130828857421875,-0.8983917236328125,-0.3765411376953125,57118.0490355
-0.06964111328125,-0.8814697265625,-0.3561248779296875,57118.0690655
-0.0666961669921875,-0.8709259033203125,-0.385009765625,57118.08909550001
-0.104095458984375,-0.883636474609375,-0.434844970703125,57118.109124500006
-0.116790771484375,-0.8848724365234375,-0.4408416748046875,57118.129154500006
-0.0990753173828125,-0.8826751708984375,-0.40167236328125,57118.149184500006
-0.0956878662109375,-0.8822479248046875,-0.371978759765625,57118.169214500005
-0.1135101318359375,-0.8917388916015625,-0.39306640625,57118.189243500005
-0.13494873046875,-0.8809661865234375,-0.439117431640625,57118.209273500004
-0.1580810546875,-0.88275146484375,-0.448577880859375,57118.229303500004
-0.175750732421875,-0.8995819091796875,-0.4215087890625,57118.2493335
-0.194580078125,-0.9161376953125,-0.4091644287109375,57118.2693625
-0.168853759765625,-0.92156982421875,-0.41766357421875,57118.2893925
-0.1844940185546875,-0.9107818603515625,-0.4633026123046875,57118.3094225
-0.2378692626953125,-0.9104461669921875,-0.502288818359375,57118.3294525
-0.251495361328125,-0.908966064453125,-0.4591217041015625,57118.3494815
-0.2284088134765625,-0.917022705078125,-0.386199951171875,57118.36951225001
-0.1898193359375,-0.9176483154296875,-0.37286376953125,57118.389542250006
-0.1522674560546875,-0.9038543701171875,-0.413482666015625,57118.409571250006
-0.1559600830078125,-0.89508056640625,-0.4580841064453125,57118.429601250005
-0.1409759521484375,-0.9035491943359375,-0.46044921875,57118.449631250005
-0.109161376953125,-0.9191741943359375,-0.4746856689453125,57118.469661250005
-0.069000244140625,-0.9090728759765625,-0.5171051025390625,57118.489690250004
-0.03863525390625,-0.9031982421875,-0.549041748046875,57118.509720250004
-0.0146636962890625,-0.924835205078125,-0.5429840087890625,57118.52975025
0.01531982421875,-0.9465789794921875,-0.54833984375,57118.54978025
0.0200958251953125,-0.9423370361328125,-0.5973663330078125,57118.56980925
0.01690673828125,-0.92877197265625,-0.6293182373046875,57118.58983925
0.052001953125,-0.946533203125,-0.6146697998046875,57118.60986925
0.07965087890625,-0.9888763427734375,-0.56219482421875,57118.62989925
0.0485076904296875,-0.9918060302734375,-0.5357666015625,57118.64992825
-0.0191497802734375,-0.96136474609375,-0.5722198486328125,57118.66995825
-0.068756103515625,-0.97760009765625,-0.619384765625,57118.68998825
-0.1046295166015625,-1.068084716796875,-0.613311767578125,57118.71001825
-0.16693115234375,-1.1019439697265625,-0.5660400390625,57118.73004725001
-0.278656005859375,-1.0762786865234375,-0.5936737060546875,57118.750077250006
-0.4156036376953125,-1.07098388671875,-0.6654815673828125,57118.770107250006
-0.5298004150390625,-1.14581298828125,-0.6160125732421875,57118.790137250006
-0.6153106689453125,-1.2238006591796875,-0.484039306640625,57118.810166250005
-0.68896484375,-1.1910858154296875,-0.43072509765625,57118.830196250005
-0.726776123046875,-1.132415771484375,-0.4305572509765625,57118.850226250004
-0.7016448974609375,-1.145050048828125,-0.405426025390625,57118.87025525
-0.7061767578125,-1.165618896484375,-0.2945556640625,57118.89028525
-0.7071533203125,-1.1512908935546875,-0.309844970703125,57118.91031525
-0.7093963623046875,-1.0716400146484375,-0.3496856689453125,57118.93034525
-0.65802001953125,-0.9944000244140625,-0.377197265625,57118.95037425
-0.6074981689453125,-0.9372100830078125,-0.379608154296875,57118.97040425
-0.528167724609375,-0.874359130859375,-0.3317718505859375,57118.99043425
-0.5294342041015625,-0.8635406494140625,-0.29302978515625,57119.01046425
-0.5748138427734375,-0.8370819091796875,-0.24981689453125,57119.03049325
-0.6295928955078125,-0.80029296875,-0.140625,57119.05052325
-0.5939788818359375,-0.7519989013671875,-0.0759124755859375,57119.07055325001
-0.487548828125,-0.7220001220703125,-0.07525634765625,57119.09058325001
-0.4160919189453125,-0.660552978515625,-0.082427978515625,57119.110612250006
-0.428863525390625,-0.6190185546875,-0.054107666015625,57119.130642250006
-0.4575653076171875,-0.6244964599609375,-0.0075836181640625,57119.150672250005
-0.3758544921875,-0.6189727783203125,0.0477294921875,57119.170701250005
-0.3310546875,-0.614471435546875,0.071075439453125,57119.190731250004
-0.3288421630859375,-0.5913848876953125,0.063751220703125,57119.210761250004
-0.2982635498046875,-0.5791015625,0.048828125,57119.230791250004
-0.2518768310546875,-0.58856201171875,0.0434112548828125,57119.25082025
-0.2012786865234375,-0.588592529296875,0.0666351318359375,57119.27085025
-0.17791748046875,-0.57537841796875,0.0856781005859375,57119.29088025
-0.127471923828125,-0.5605926513671875,0.023345947265625,57119.31091025
-0.0292816162109375,-0.57855224609375,0.0550994873046875,57119.33093925
0.041961669921875,-0.55322265625,0.14764404296875,57119.35096925
0.046112060546875,-0.5503082275390625,0.1723785400390625,57119.37099929167
0.0457916259765625,-0.6033782958984375,0.12689208984375,57119.39102929167
0.066650390625,-0.621429443359375,0.1121826171875,57119.41105829167
0.1338348388671875,-0.6212158203125,0.1439056396484375,57119.43108829167
0.1755523681640625,-0.6403350830078125,0.2072601318359375,57119.45111829167
0.196136474609375,-0.6465911865234375,0.232177734375,57119.47114829167
0.242340087890625,-0.6502532958984375,0.1972808837890625,57119.49117729167
0.2939300537109375,-0.6579742431640625,0.1905975341796875,57119.51120729167
0.365325927734375,-0.6545867919921875,0.2422637939453125,57119.53123729167
0.445098876953125,-0.683807373046875,0.3002471923828125,57119.55126729167
0.4428253173828125,-0.755035400390625,0.2956695556640625,57119.57129629167
0.399688720703125,-0.784393310546875,0.2252349853515625,57119.59132629167
0.4190216064453125,-0.7753143310546875,0.1880035400390625,57119.61135629167
0.5425872802734375,-0.8441619873046875,0.1686859130859375,57119.63138529167
0.5847930908203125,-0.92132568359375,0.139678955078125,57119.65141529167
0.4853057861328125,-0.9337005615234375,0.072845458984375,57119.67144529167
0.4141082763671875,-0.96697998046875,0.0068817138671875,57119.69147529167
0.3803558349609375,-1.026824951171875,-0.0315399169921875,57119.71150429167
0.3937225341796875,-1.084259033203125,-0.041534423828125,57119.73153429167
0.422576904296875,-1.080291748046875,-0.0512542724609375,57119.75156429167
0.4664154052734375,-1.0631256103515625,-0.10943603515625,57119.77159429167
0.364349365234375,-1.1136932373046875,-0.1464385986328125,57119.79162329167
0.227813720703125,-1.21002197265625,-0.1074981689453125,57119.81165329167
0.1725921630859375,-1.2276611328125,-0.106231689453125,57119.83168329167
0.276153564453125,-1.160308837890625,-0.211334228515625,57119.85171329167
0.264556884765625,-1.15008544921875,-0.358154296875,57119.87174229167
0.1079559326171875,-1.256011962890625,-0.3528594970703125,57119.89177229167
0.060791015625,-1.32855224609375,-0.20416259765625,57119.911802291674
0.237152099609375,-1.2368927001953125,-0.217437744140625,57119.93183129167
0.20458984375,-1.1788330078125,-0.4412841796875,57119.95186129167
-0.0271759033203125,-1.22607421875,-0.5228424072265625,57119.97189129167
-0.0834197998046875,-1.244293212890625,-0.36602783203125,57119.99192129167
-0.0012664794921875,-1.2188873291015625,-0.2403717041015625,57120.01195029167
-0.052734375,-1.22210693359375,-0.3041534423828125,57120.03198029167
-0.210205078125,-1.221160888671875,-0.41217041015625,57120.05201029167
-0.3213958740234375,-1.2120361328125,-0.417816162109375,57120.07204029167
-0.29278564453125,-1.178985595703125,-0.34197998046875,57120.09206929167
-0.1851043701171875,-1.1271514892578125,-0.293853759765625,57120.11209929167
-0.1282196044921875,-1.0813446044921875,-0.3338623046875,57120.13212929167
-0.160125732421875,-1.042449951171875,-0.377105712890625,57120.15215929167
-0.2440338134765625,-1.01898193359375,-0.3498687744140625,57120.17218829167
-0.265716552734375,-1.00189208984375,-0.279327392578125,57120.19221829167
-0.209320068359375,-0.9717864990234375,-0.225189208984375,57120.21224829167
-0.1470794677734375,-0.9335784912109375,-0.23944091796875,57120.23227729167
-0.1150665283203125,-0.9134979248046875,-0.24432373046875,57120.25230729167
-0.0999298095703125,-0.9070587158203125,-0.218505859375,57120.27233729167
-0.070709228515625,-0.9111328125,-0.203399658203125,57120.29236729167
-0.050201416015625,-0.908233642578125,-0.2382965087890625,57120.31239629167
-0.0516204833984375,-0.90960693359375,-0.2570648193359375,57120.33242629167
-0.0335235595703125,-0.919525146484375,-0.251861572265625,57120.35245629167
-0.0058441162109375,-0.922607421875,-0.22943115234375,57120.37248587501
0.027557373046875,-0.9062042236328125,-0.2472381591796875,57120.392514875006
0.0393524169921875,-0.90924072265625,-0.2532806396484375,57120.412544875006
0.024871826171875,-0.92913818359375,-0.2343902587890625,57120.432574875005
0.013092041015625,-0.94256591796875,-0.20660400390625,57120.452604875005
0.0231781005859375,-0.94293212890625,-0.21728515625,57120.472633875004
0.0456085205078125,-0.949798583984375,-0.236572265625,57120.492663875004
0.0631256103515625,-0.9574127197265625,-0.23712158203125,57120.512693875
0.085205078125,-0.9633941650390625,-0.242645263671875,57120.532722875
0.07073974609375,-0.96685791015625,-0.2415924072265625,57120.552752875
0.0872802734375,-0.996185302734375,-0.1853790283203125,57120.572782875
0.015106201171875,-0.962127685546875,-0.3434600830078125,57120.592812875
0.0320587158203125,-0.974029541015625,-0.36358642578125,57120.612841875
0.0258026123046875,-0.975738525390625,-0.342376708984375,57120.632871875
0.0119171142578125,-0.98785400390625,-0.3051910400390625,57120.652901875
0.050811767578125,-0.99688720703125,-0.2216339111328125,57120.672931875
