acceleration_x,acceleration_y,acceleration_z,timestamp
-0.052764892578125,-0.8941192626953125,-0.3692779541015625,57064.2891485
-0.069122314453125,-0.9042205810546875,-0.3773193359375,57064.30917854167
-0.1033477783203125,-0.917999267578125,-0.4125213623046875,57064.32920854167
-0.114501953125,-0.9243621826171875,-0.4023284912109375,57064.34923754167
-0.1064605712890625,-0.9241790771484375,-0.397064208984375,57064.36926754167
-0.10479736328125,-0.9132232666015625,-0.4192352294921875,57064.38929754167
-0.1186065673828125,-0.9182281494140625,-0.4432525634765625,57064.40932754167
-0.1390228271484375,-0.92376708984375,-0.4492950439453125,57064.42935754167
-0.133331298828125,-0.9188079833984375,-0.44189453125,57064.44938654167
-0.1107330322265625,-0.902099609375,-0.438201904296875,57064.46941654167
-0.092987060546875,-0.8889312744140625,-0.4459228515625,57064.48944654167
-0.090606689453125,-0.8912811279296875,-0.4481048583984375,57064.50947654167
-0.101043701171875,-0.904632568359375,-0.446136474609375,57064.52950654167
-0.1044464111328125,-0.9164276123046875,-0.44146728515625,57064.54953554167
-0.0906829833984375,-0.9194488525390625,-0.4384613037109375,57064.56956554167
-0.0970611572265625,-0.9154510498046875,-0.450897216796875,57064.58959554167
-0.133087158203125,-0.913970947265625,-0.473236083984375,57064.60962554167
-0.16748046875,-0.916412353515625,-0.4710693359375,57064.62965554167
-0.1996002197265625,-0.912933349609375,-0.450164794921875,57064.64968454167
-0.245330810546875,-0.913055419921875,-0.4111785888671875,57064.66971454167
-0.258819580078125,-0.9081573486328125,-0.3946533203125,57064.68974454167
-0.260406494140625,-0.8838348388671875,-0.4263763427734375,57064.70977454167
-0.2603759765625,-0.873199462890625,-0.4409942626953125,57064.72980454167
-0.258148193359375,-0.8760986328125,-0.420257568359375,57064.74983354167
-0.2528839111328125,-0.87152099609375,-0.395660400390625,57064.76986354167
-0.2374420166015625,-0.868011474609375,-0.3916778564453125,57064.78989354167
-0.2225799560546875,-0.8661346435546875,-0.413177490234375,57064.80992354167
-0.2111663818359375,-0.8738250732421875,-0.4134979248046875,57064.82995354167
-0.196258544921875,-0.874237060546875,-0.3986358642578125,57064.84998354167
-0.1740570068359375,-0.8761749267578125,-0.393524169921875,57064.87001254167
-0.1620941162109375,-0.8695526123046875,-0.4188232421875,57064.89004254167
-0.163787841796875,-0.8723297119140625,-0.437286376953125,57064.91007254167
-0.17132568359375,-0.879364013671875,-0.44110107421875,57064.93010254167
-0.1595916748046875,-0.8852996826171875,-0.4335479736328125,57064.95013154167
-0.1363677978515625,-0.8781585693359375,-0.4302825927734375,57064.97016154167
-0.1286163330078125,-0.8751068115234375,-0.4344482421875,57064.99019154167
-0.1353607177734375,-0.88299560546875,-0.4289093017578125,57065.01022154167
-0.1325531005859375,-0.8892059326171875,-0.4165496826171875,57065.03025154167
-0.104278564453125,-0.881072998046875,-0.4346923828125,57065.05028154167
-0.0627593994140625,-0.886474609375,-0.445892333984375,57065.07031054167
-0.0233917236328125,-0.90118408203125,-0.4402008056640625,57065.09034054167
-0.00921630859375,-0.90606689453125,-0.4489898681640625,57065.11037054167
-0.011871337890625,-0.90435791015625,-0.491058349609375,57065.13040054167
0.006866455078125,-0.9255523681640625,-0.5046539306640625,57065.15043054167
0.06890869140625,-0.9624481201171875,-0.46258544921875,57065.17045954167
0.11627197265625,-0.9915924072265625,-0.4416656494140625,57065.190489541674
0.08544921875,-0.9912567138671875,-0.491607666015625,57065.21051954167
0.0321502685546875,-1.0243988037109375,-0.5870361328125,57065.23054954167
-0.000885009765625,-1.0834197998046875,-0.5967559814453125,57065.25057954167
-0.0283355712890625,-1.06561279296875,-0.561126708984375,57065.27060854167
-0.050933837890625,-1.0252838134765625,-0.557525634765625,57065.29063854167
-0.035491943359375,-1.057647705078125,-0.56903076171875,57065.310668750004
-0.1020660400390625,-1.0650177001953125,-0.6101531982421875,57065.330698750004
-0.2808990478515625,-1.052459716796875,-0.6597747802734375,57065.35072875
-0.3984527587890625,-1.050018310546875,-0.6153106689453125,57065.37075775
-0.403167724609375,-1.071929931640625,-0.48919677734375,57065.39078775
-0.4727020263671875,-1.074005126953125,-0.40625,57065.41081775
-0.5765228271484375,-1.0423431396484375,-0.4506683349609375,57065.43084775
-0.664947509765625,-1.0318603515625,-0.491455078125,57065.45087775
-0.6779937744140625,-1.035614013671875,-0.4217987060546875,57065.47090675
-0.7046661376953125,-1.01458740234375,-0.332489013671875,57065.49093675
-0.7206268310546875,-0.989044189453125,-0.2944488525390625,57065.51096675
-0.665435791015625,-0.9607086181640625,-0.2907562255859375,57065.53099675001
-0.6288604736328125,-0.9308319091796875,-0.333038330078125,57065.55102675001
-0.65521240234375,-0.9123687744140625,-0.353179931640625,57065.571055750006
-0.662811279296875,-0.8978424072265625,-0.318145751953125,57065.591085750006
-0.63543701171875,-0.8739166259765625,-0.25372314453125,57065.611115750005
-0.656463623046875,-0.86566162109375,-0.18658447265625,57065.631145750005
-0.685699462890625,-0.824859619140625,-0.1897735595703125,57065.651175750005
-0.66986083984375,-0.789794921875,-0.274871826171875,57065.671204750004
-0.6047210693359375,-0.75067138671875,-0.3278350830078125,57065.691234750004
-0.552337646484375,-0.7147979736328125,-0.2689361572265625,57065.71126475
-0.5694122314453125,-0.6967010498046875,-0.1968231201171875,57065.73129475
-0.5994720458984375,-0.6951141357421875,-0.1596221923828125,57065.75132475
-0.5996551513671875,-0.6900634765625,-0.1484375,57065.77135375
-0.5667877197265625,-0.669769287109375,-0.120635986328125,57065.79138375
-0.5282745361328125,-0.6513519287109375,-0.085906982421875,57065.81141375
-0.499359130859375,-0.6175079345703125,-0.0657501220703125,57065.83144375
-0.4463958740234375,-0.6014404296875,-0.0723876953125,57065.85147375
-0.4082489013671875,-0.609283447265625,-0.0607147216796875,57065.87150275
-0.3287200927734375,-0.6019287109375,-0.0230255126953125,57065.89153275
-0.2216339111328125,-0.61114501953125,0.022216796875,57065.91156275001
-0.20513916015625,-0.647186279296875,0.0758209228515625,57065.93159275001
-0.23797607421875,-0.6869354248046875,0.077362060546875,57065.951622750006
-0.224273681640625,-0.69793701171875,0.0370635986328125,57065.971651750006
-0.16510009765625,-0.6990203857421875,0.011444091796875,57065.991681750005
-0.0662689208984375,-0.6920318603515625,0.0444793701171875,57066.011711750005
0.0309295654296875,-0.6897430419921875,0.0792999267578125,57066.031741750005
0.0703125,-0.681304931640625,0.0780487060546875,57066.051771750004
0.0885772705078125,-0.6990509033203125,0.036224365234375,57066.07180075
0.1489410400390625,-0.7020416259765625,0.031097412109375,57066.09183075
0.2174224853515625,-0.7010345458984375,0.0551910400390625,57066.11186075
0.226409912109375,-0.6970672607421875,0.0792083740234375,57066.13189075
0.23797607421875,-0.702789306640625,0.087890625,57066.15192075
0.30255126953125,-0.7490692138671875,0.0567626953125,57066.17194975
0.3348236083984375,-0.7758636474609375,0.03759765625,57066.19197975
0.3191375732421875,-0.7972564697265625,0.0191192626953125,57066.21200975
0.2947235107421875,-0.8431549072265625,0.0061187744140625,57066.23203975
0.335601806640625,-0.8991546630859375,0.017120361328125,57066.25206975
0.3462677001953125,-0.9435272216796875,-0.037109375,57066.27209875001
0.342315673828125,-0.94189453125,-0.0926361083984375,57066.29212875001
0.3272857666015625,-0.9323883056640625,-0.10931396484375,57066.312159500005
0.3318023681640625,-0.9781646728515625,-0.13336181640625,57066.332189500004
0.3978729248046875,-0.9951171875,-0.142425537109375,57066.352219500004
0.430816650390625,-0.9847259521484375,-0.1392974853515625,57066.3722485
0.4134674072265625,-0.9811553955078125,-0.15374755859375,57066.3922785
0.3691558837890625,-1.031402587890625,-0.1328582763671875,57066.4123085
0.3076934814453125,-1.068878173828125,-0.0851287841796875,57066.4323385
0.2750396728515625,-1.08203125,-0.069671630859375,57066.4523685
0.2930145263671875,-1.05828857421875,-0.11151123046875,57066.4723975
0.30072021484375,-1.0694580078125,-0.1323394775390625,57066.4924275
0.3144073486328125,-1.105804443359375,-0.150146484375,57066.5124575
0.234344482421875,-1.1337432861328125,-0.172760009765625,57066.5324875
0.1369781494140625,-1.134429931640625,-0.175537109375,57066.5525175
0.1025543212890625,-1.1387786865234375,-0.1943817138671875,57066.57254650001
0.1225128173828125,-1.153411865234375,-0.1966705322265625,57066.59257650001
0.0860443115234375,-1.157745361328125,-0.191741943359375,57066.612606500006
0.04254150390625,-1.1539306640625,-0.208099365234375,57066.632636500006
0.0299530029296875,-1.145782470703125,-0.2456817626953125,57066.652666500006
0.008453369140625,-1.1573028564453125,-0.2640228271484375,57066.672695500005
-0.020233154296875,-1.152557373046875,-0.268524169921875,57066.692725500005
-0.024993896484375,-1.1490478515625,-0.2512969970703125,57066.712755500004
0.0030364990234375,-1.1344146728515625,-0.2400360107421875,57066.732785500004
-0.01025390625,-1.1305389404296875,-0.280670166015625,57066.7528155
-0.066192626953125,-1.1404266357421875,-0.2912750244140625,57066.7728445
-0.0744476318359375,-1.1298065185546875,-0.26336669921875,57066.7928745
-0.039093017578125,-1.0970306396484375,-0.2546234130859375,57066.8129045
-0.024505615234375,-1.1015777587890625,-0.25445556640625,57066.8329345
-0.06500244140625,-1.1087493896484375,-0.2469329833984375,57066.8529645
-0.091796875,-1.09246826171875,-0.285247802734375,57066.8729935
-0.1147003173828125,-1.055908203125,-0.32867431640625,57066.8930235
-0.1004486083984375,-1.027435302734375,-0.2955322265625,57066.9130535
-0.0904693603515625,-1.022979736328125,-0.218719482421875,57066.9330835
-0.087799072265625,-0.993408203125,-0.179046630859375,57066.95311350001
-0.0831146240234375,-0.9598236083984375,-0.2228851318359375,57066.973142500006
-0.0713043212890625,-0.944915771484375,-0.24163818359375,57066.993172500006
-0.0938720703125,-0.943328857421875,-0.226104736328125,57067.013202500006
-0.12109375,-0.949798583984375,-0.2254638671875,57067.033232500005
-0.098358154296875,-0.923431396484375,-0.2476654052734375,57067.053262500005
-0.0625,-0.910400390625,-0.26123046875,57067.073291500004
-0.0562744140625,-0.9140472412109375,-0.2554473876953125,57067.093321500004
-0.048553466796875,-0.8980255126953125,-0.2588348388671875,57067.113351500004
-0.0301055908203125,-0.9004364013671875,-0.2383270263671875,57067.1333815
-0.0062103271484375,-0.9046630859375,-0.1990509033203125,57067.1534115
0.0209808349609375,-0.90887451171875,-0.2063140869140625,57067.1734405
0.016448974609375,-0.9211578369140625,-0.216583251953125,57067.1934705
-0.0025787353515625,-0.952484130859375,-0.225494384765625,57067.2135005
-0.0001373291015625,-0.96685791015625,-0.2202911376953125,57067.2335305
0.025787353515625,-0.9656982421875,-0.2550811767578125,57067.2535605
0.0349273681640625,-0.966583251953125,-0.2849578857421875,57067.2735895
0.0178375244140625,-0.988037109375,-0.28155517578125,57067.2936195
0.0053558349609375,-0.9978179931640625,-0.271026611328125,57067.313649250005
0.009796142578125,-0.9861602783203125,-0.2712860107421875,57067.333679250005
0.010589599609375,-0.9738616943359375,-0.2725067138671875,57067.353708250004
0.027923583984375,-0.9613037109375,-0.2655487060546875,57067.373738250004
0.0371551513671875,-0.9619903564453125,-0.255645751953125,57067.39376825
0.025726318359375,-0.951446533203125,-0.2694854736328125,57067.41379825
0.019500732421875,-0.9539947509765625,-0.2642364501953125,57067.43382825
0.038360595703125,-0.95172119140625,-0.22613525390625,57067.45385825
0.0393829345703125,-0.941619873046875,-0.244781494140625,57067.47388725
0.0125732421875,-0.958740234375,-0.2516326904296875,57067.49391725
-0.00750732421875,-0.954681396484375,-0.2709197998046875,57067.51394725
-0.044952392578125,-0.948699951171875,-0.36016845703125,57067.53397725
-0.0070037841796875,-0.96270751953125,-0.3139495849609375,57067.55400625
