acceleration_x,acceleration_y,acceleration_z,timestamp
0.12969970703125,-0.699615478515625,-0.7787017822265625,57296.393128125004
0.1677703857421875,-0.6534576416015625,-0.64306640625,57296.413158125004
0.139923095703125,-0.72607421875,-0.6196136474609375,57296.433188125004
0.0534820556640625,-0.78363037109375,-0.7339019775390625,57296.453217125
0.0297698974609375,-0.74658203125,-0.7830047607421875,57296.473247125
0.0830078125,-0.7172698974609375,-0.715728759765625,57296.493276125
0.1027069091796875,-0.722320556640625,-0.640167236328125,57296.513306125
0.064178466796875,-0.73974609375,-0.636444091796875,57296.533336125
0.02960205078125,-0.7584686279296875,-0.6673736572265625,57296.553364625004
0.0232696533203125,-0.7628326416015625,-0.68310546875,57296.573394625004
0.0444183349609375,-0.759857177734375,-0.675750732421875,57296.593423625
0.0558624267578125,-0.755401611328125,-0.6656951904296875,57296.613453625
0.0689239501953125,-0.7450103759765625,-0.6635284423828125,57296.633483625
0.068756103515625,-0.74468994140625,-0.6598052978515625,57296.653512625
0.07080078125,-0.75164794921875,-0.65234375,57296.673542625
0.0810546875,-0.7548675537109375,-0.660919189453125,57296.693571625
0.093353271484375,-0.7516021728515625,-0.6719818115234375,57296.713601625
0.0993804931640625,-0.7509613037109375,-0.66241455078125,57296.733631625
0.0902862548828125,-0.762786865234375,-0.635345458984375,57296.75366062501
0.08050537109375,-0.7725067138671875,-0.6183013916015625,57296.77369062501
0.0753631591796875,-0.7772216796875,-0.6287078857421875,57296.793719625006
0.0894622802734375,-0.7777252197265625,-0.6349334716796875,57296.813749625006
0.1038970947265625,-0.77960205078125,-0.6334991455078125,57296.833779625005
0.104705810546875,-0.779876708984375,-0.619415283203125,57296.853808625005
0.0912933349609375,-0.78839111328125,-0.5994110107421875,57296.873838625004
0.07366943359375,-0.807891845703125,-0.6135406494140625,57296.893867625
0.0677490234375,-0.8129730224609375,-0.649017333984375,57296.913897625
0.0759124755859375,-0.8088531494140625,-0.64447021484375,57296.933926625
0.0686492919921875,-0.8086395263671875,-0.6331329345703125,57296.953956625
0.0747833251953125,-0.8160552978515625,-0.593170166015625,57296.973986625
0.091766357421875,-0.821014404296875,-0.5424652099609375,57296.994015625
0.10467529296875,-0.822601318359375,-0.5251007080078125,57297.014045625
0.0925445556640625,-0.8157806396484375,-0.535125732421875,57297.034074625
0.08544921875,-0.819091796875,-0.5339508056640625,57297.054104625
0.0810394287109375,-0.81884765625,-0.5301513671875,57297.07413462501
0.079132080078125,-0.817138671875,-0.5489044189453125,57297.094163625006
0.0771636962890625,-0.813568115234375,-0.538116455078125,57297.114193625006
0.0742034912109375,-0.816680908203125,-0.528472900390625,57297.134222625005
0.0651702880859375,-0.8270111083984375,-0.5214080810546875,57297.154252625005
0.0743255615234375,-0.831146240234375,-0.5384979248046875,57297.174282625005
0.0754241943359375,-0.82159423828125,-0.5519561767578125,57297.194311625004
0.072174072265625,-0.8244171142578125,-0.550323486328125,57297.214341625004
0.0676116943359375,-0.8330841064453125,-0.53875732421875,57297.234370625
0.0585784912109375,-0.8383331298828125,-0.543487548828125,57297.254400625
0.067474365234375,-0.840423583984375,-0.5486297607421875,57297.274429625
0.0772247314453125,-0.838165283203125,-0.5455780029296875,57297.294459625
0.069183349609375,-0.8395233154296875,-0.548126220703125,57297.314489625
0.058929443359375,-0.8459930419921875,-0.550079345703125,57297.334518625
0.056854248046875,-0.847503662109375,-0.560546875,57297.354548625
0.0632781982421875,-0.846221923828125,-0.5593719482421875,57297.37457762501
0.0670318603515625,-0.8394317626953125,-0.5588531494140625,57297.39460762501
0.0613861083984375,-0.837677001953125,-0.5596923828125,57297.41463762501
0.05010986328125,-0.8416748046875,-0.55853271484375,57297.434666625006
0.0521240234375,-0.8397216796875,-0.55389404296875,57297.454696625005
0.0632781982421875,-0.8334503173828125,-0.54150390625,57297.474725625005
0.072113037109375,-0.8311767578125,-0.5467376708984375,57297.494755625004
0.0660247802734375,-0.8274993896484375,-0.5521697998046875,57297.514785625004
0.0667877197265625,-0.8291778564453125,-0.5461883544921875,57297.534814625
0.072601318359375,-0.8249053955078125,-0.5504150390625,57297.55484554167
0.0810546875,-0.8213653564453125,-0.5477294921875,57297.57487454167
0.079071044921875,-0.82537841796875,-0.5486602783203125,57297.59490454167
0.063385009765625,-0.8349761962890625,-0.5569000244140625,57297.61493454167
0.055419921875,-0.836761474609375,-0.5553131103515625,57297.63496354167
0.06414794921875,-0.832855224609375,-0.5401611328125,57297.65499354167
0.0595855712890625,-0.8304595947265625,-0.531036376953125,57297.67502254167
0.038421630859375,-0.8337554931640625,-0.5289459228515625,57297.69505254167
0.015960693359375,-0.8342437744140625,-0.5367889404296875,57297.71508154167
0.0106658935546875,-0.837890625,-0.5390472412109375,57297.73511154167
0.02508544921875,-0.8337554931640625,-0.5166168212890625,57297.75514154167
0.034515380859375,-0.8284912109375,-0.5177154541015625,57297.77517054167
0.0192108154296875,-0.8355560302734375,-0.5508575439453125,57297.795200541674
0.01409912109375,-0.8429412841796875,-0.5701904296875,57297.81522954167
0.0223541259765625,-0.8404541015625,-0.565704345703125,57297.83525954167
0.0357208251953125,-0.840850830078125,-0.54779052734375,57297.85528954167
0.0428009033203125,-0.8423004150390625,-0.5463714599609375,57297.87531854167
0.040679931640625,-0.84228515625,-0.549163818359375,57297.89534854167
0.0401458740234375,-0.843170166015625,-0.5565338134765625,57297.91537754167
0.0449981689453125,-0.8448028564453125,-0.5617218017578125,57297.93540754167
0.0440521240234375,-0.8482513427734375,-0.5540313720703125,57297.95543654167
0.045318603515625,-0.843719482421875,-0.542755126953125,57297.97546654167
0.03936767578125,-0.84375,-0.5284271240234375,57297.99549654167
0.035400390625,-0.8410491943359375,-0.5324249267578125,57298.01552554167
0.02978515625,-0.842315673828125,-0.54693603515625,57298.03555554167
0.0284423828125,-0.840118408203125,-0.550689697265625,57298.05558454167
0.0178375244140625,-0.83563232421875,-0.5506744384765625,57298.07561454167
0.008544921875,-0.835784912109375,-0.5491790771484375,57298.09564454167
0.006317138671875,-0.8407440185546875,-0.5508270263671875,57298.11567354167
0.00531005859375,-0.8494110107421875,-0.5463409423828125,57298.13570354167
0.0073394775390625,-0.8433074951171875,-0.5456085205078125,57298.15573254167
0.01611328125,-0.8388214111328125,-0.5486602783203125,57298.17576254167
0.0189208984375,-0.8328399658203125,-0.55755615234375,57298.19579254167
0.014068603515625,-0.840087890625,-0.5524444580078125,57298.21582154167
0.02545166015625,-0.842437744140625,-0.5360565185546875,57298.23585154167
0.0425872802734375,-0.8319549560546875,-0.5295562744140625,57298.25588054167
0.04632568359375,-0.827789306640625,-0.5449981689453125,57298.27591054167
0.0467376708984375,-0.83477783203125,-0.553466796875,57298.29593954167
0.050018310546875,-0.8377838134765625,-0.55364990234375,57298.31596954167
0.048980712890625,-0.8359375,-0.569610595703125,57298.33599954167
0.0420074462890625,-0.8341217041015625,-0.58160400390625,57298.35602854167
0.041046142578125,-0.8312530517578125,-0.586029052734375,57298.37605854167
0.0428619384765625,-0.8292388916015625,-0.583770751953125,57298.39608754167
0.038543701171875,-0.832000732421875,-0.58282470703125,57298.41611754167
0.0278167724609375,-0.835845947265625,-0.5863494873046875,57298.43614754167
0.0244598388671875,-0.83319091796875,-0.5781402587890625,57298.45617654167
0.03369140625,-0.8266448974609375,-0.5543365478515625,57298.47620654167
0.039459228515625,-0.8234100341796875,-0.5420074462890625,57298.49623554167
0.039459228515625,-0.8216552734375,-0.54559326171875,57298.51626554167
0.0379791259765625,-0.82061767578125,-0.5600738525390625,57298.53629454167
0.042816162109375,-0.8192291259765625,-0.5673370361328125,57298.55632425001
0.04852294921875,-0.8144989013671875,-0.57135009765625,57298.576354250006
0.0407867431640625,-0.813201904296875,-0.5745697021484375,57298.596383250006
0.0395660400390625,-0.814697265625,-0.5720062255859375,57298.616413250005
0.0419769287109375,-0.814361572265625,-0.5693511962890625,57298.636442250005
0.035888671875,-0.8137054443359375,-0.5737762451171875,57298.656472250004
0.0283203125,-0.8193511962890625,-0.580291748046875,57298.676501250004
0.0281982421875,-0.8230133056640625,-0.577850341796875,57298.69653125
0.033935546875,-0.8217620849609375,-0.5794830322265625,57298.71656125
0.035858154296875,-0.8160247802734375,-0.5768280029296875,57298.73659025
0.0317840576171875,-0.8184356689453125,-0.5715179443359375,57298.75662025
0.02862548828125,-0.8252716064453125,-0.5670318603515625,57298.77664925
0.0295562744140625,-0.822540283203125,-0.566802978515625,57298.79667925
0.0374603271484375,-0.819580078125,-0.56591796875,57298.81670925
0.0445404052734375,-0.8153839111328125,-0.5780029296875,57298.83673825
0.0379638671875,-0.81573486328125,-0.5833587646484375,57298.85676825001
0.0334625244140625,-0.819061279296875,-0.5873870849609375,57298.876797250006
0.053863525390625,-0.8100738525390625,-0.588653564453125,57298.896827250006
0.0607452392578125,-0.8080291748046875,-0.594757080078125,57298.916857250006
0.0423736572265625,-0.8192291259765625,-0.607330322265625,57298.936886250005
0.044769287109375,-0.819793701171875,-0.5993194580078125,57298.956916250005
0.04345703125,-0.81439208984375,-0.586151123046875,57298.976945250004
0.0443115234375,-0.8134613037109375,-0.57977294921875,57298.996975250004
0.0403289794921875,-0.8103179931640625,-0.571502685546875,57299.01700425
0.0401763916015625,-0.8121185302734375,-0.5614166259765625,57299.03703425
0.046722412109375,-0.808990478515625,-0.56201171875,57299.05706425
0.056915283203125,-0.803741455078125,-0.5793304443359375,57299.07709325
0.061553955078125,-0.8006591796875,-0.5957794189453125,57299.09712325
0.0510101318359375,-0.8054656982421875,-0.6027069091796875,57299.11715225
0.042694091796875,-0.811859130859375,-0.5859222412109375,57299.13718225
0.03826904296875,-0.814300537109375,-0.5780029296875,57299.15721225
0.040191650390625,-0.8097991943359375,-0.60211181640625,57299.17724125001
0.0457305908203125,-0.804107666015625,-0.6202545166015625,57299.19727125001
0.0454559326171875,-0.8033905029296875,-0.6180877685546875,57299.217300250006
0.038665771484375,-0.807525634765625,-0.60986328125,57299.237330250005
0.0272979736328125,-0.81280517578125,-0.6048583984375,57299.257359250005
0.0200653076171875,-0.8107757568359375,-0.6003875732421875,57299.277389250004
0.0189971923828125,-0.8096771240234375,-0.6033477783203125,57299.297419250004
0.014678955078125,-0.8128814697265625,-0.6091156005859375,57299.31744825
0.00531005859375,-0.8155670166015625,-0.6207427978515625,57299.33747825
0.0204010009765625,-0.8050537109375,-0.544586181640625,57299.35750725
0.0918426513671875,-0.804779052734375,-0.4788360595703125,57299.37753725
0.0130157470703125,-0.774261474609375,-0.6313018798828125,57299.39756625
-0.03729248046875,-0.8089141845703125,-0.77337646484375,57299.41759625
-0.0191192626953125,-0.811004638671875,-0.6773223876953125,57299.43762625
0.0841827392578125,-0.8200531005859375,-0.473236083984375,57299.45765525
