acceleration_x,acceleration_y,acceleration_z,timestamp
0.030731201171875,-0.7701416015625,-0.5352630615234375,57319.70754275
0.0424957275390625,-0.769012451171875,-0.5805816650390625,57319.72757175
-0.0310211181640625,-0.78143310546875,-0.702972412109375,57319.74760175
-0.0772552490234375,-0.789154052734375,-0.77044677734375,57319.76763175
-0.071563720703125,-0.81927490234375,-0.7152252197265625,57319.78766075
-0.059112548828125,-0.83294677734375,-0.59539794921875,57319.80769075
-0.0503387451171875,-0.8476409912109375,-0.517120361328125,57319.82771975001
-0.049163818359375,-0.8510284423828125,-0.5232391357421875,57319.847749750006
-0.07037353515625,-0.8409881591796875,-0.593963623046875,57319.867778750006
-0.0648651123046875,-0.823394775390625,-0.6367340087890625,57319.887808750005
-0.05047607421875,-0.8089447021484375,-0.62420654296875,57319.907838750005
-0.04656982421875,-0.8201141357421875,-0.587738037109375,57319.927867750004
-0.0522613525390625,-0.8304901123046875,-0.5645904541015625,57319.947897750004
-0.04803466796875,-0.83343505859375,-0.5699920654296875,57319.96792675
-0.03265380859375,-0.8216705322265625,-0.5794219970703125,57319.98795675
-0.020965576171875,-0.81439208984375,-0.5813751220703125,57320.00798575
-0.0107421875,-0.8117828369140625,-0.5812530517578125,57320.02801575
-0.0069122314453125,-0.8126068115234375,-0.5658111572265625,57320.04804575
-0.0081787109375,-0.8189697265625,-0.5525665283203125,57320.06807475
-0.0152435302734375,-0.8123779296875,-0.5528717041015625,57320.08810475
-0.0103759765625,-0.8059844970703125,-0.548370361328125,57320.10813375
-0.001312255859375,-0.7985992431640625,-0.5333709716796875,57320.12816375001
-0.006622314453125,-0.8036346435546875,-0.50885009765625,57320.148192750006
-0.0178070068359375,-0.81146240234375,-0.49822998046875,57320.168222750006
-0.020904541015625,-0.8213348388671875,-0.512603759765625,57320.188251750005
-0.003570556640625,-0.8132171630859375,-0.5053558349609375,57320.208281750005
0.0145721435546875,-0.8121795654296875,-0.4903411865234375,57320.228311750005
0.0178680419921875,-0.808349609375,-0.47393798828125,57320.248340750004
0.009246826171875,-0.8100738525390625,-0.482330322265625,57320.268370750004
-0.00543212890625,-0.82061767578125,-0.4873046875,57320.28839975
-0.0086822509765625,-0.82647705078125,-0.4876556396484375,57320.30842975
0.003875732421875,-0.8256683349609375,-0.4798126220703125,57320.32845875
0.013031005859375,-0.82244873046875,-0.4773101806640625,57320.34848875
0.013916015625,-0.81683349609375,-0.4777984619140625,57320.36851875
-0.0067291259765625,-0.8175506591796875,-0.505218505859375,57320.38854775
-0.0168304443359375,-0.8323516845703125,-0.53704833984375,57320.40857775
-0.02178955078125,-0.8310699462890625,-0.540374755859375,57320.42860675001
-0.0107269287109375,-0.8337249755859375,-0.5081787109375,57320.44863675001
-0.0035247802734375,-0.8307952880859375,-0.4990692138671875,57320.468665750006
-0.00970458984375,-0.8264923095703125,-0.527557373046875,57320.488695750006
-0.0149993896484375,-0.8258514404296875,-0.5593414306640625,57320.508724750005
-0.00909423828125,-0.8275909423828125,-0.5716400146484375,57320.528754750005
0.0149688720703125,-0.8226318359375,-0.5679473876953125,57320.548784750004
0.025543212890625,-0.821258544921875,-0.5824432373046875,57320.568814375
0.0164642333984375,-0.8197784423828125,-0.6171417236328125,57320.588844375
0.0093536376953125,-0.8208770751953125,-0.6407623291015625,57320.608873375
0.0154876708984375,-0.8206634521484375,-0.637176513671875,57320.628903375
0.0173797607421875,-0.822723388671875,-0.631378173828125,57320.64893237501
-3.0517578125e-05,-0.8299102783203125,-0.62628173828125,57320.668962375006
-0.013336181640625,-0.8395843505859375,-0.6233673095703125,57320.688992375006
-0.019134521484375,-0.841552734375,-0.62518310546875,57320.709021375005
-0.0209503173828125,-0.8427734375,-0.628875732421875,57320.729051375005
-0.028350830078125,-0.835418701171875,-0.64569091796875,57320.749080375004
-0.04400634765625,-0.8282012939453125,-0.661041259765625,57320.769110375004
-0.0669403076171875,-0.8231658935546875,-0.667266845703125,57320.789139375
-0.0873870849609375,-0.81939697265625,-0.6613616943359375,57320.809169375
-0.093719482421875,-0.821136474609375,-0.6459808349609375,57320.829198375
-0.0900115966796875,-0.8135986328125,-0.633544921875,57320.849228375
-0.0846099853515625,-0.8036346435546875,-0.627471923828125,57320.869258375
-0.083587646484375,-0.802734375,-0.6093292236328125,57320.889287375
-0.082275390625,-0.8139801025390625,-0.569793701171875,57320.909317375
-0.0736236572265625,-0.8298797607421875,-0.525604248046875,57320.929346375
-0.064117431640625,-0.8366241455078125,-0.516326904296875,57320.94937637501
-0.03179931640625,-0.8272552490234375,-0.5448150634765625,57320.969405375006
-0.0113067626953125,-0.8090667724609375,-0.570465087890625,57320.989435375006
-0.0036163330078125,-0.816375732421875,-0.5587158203125,57321.009465375006
-0.0090789794921875,-0.8290252685546875,-0.53411865234375,57321.029494375005
-0.0213165283203125,-0.8396759033203125,-0.5430145263671875,57321.049524375005
-0.0157012939453125,-0.8307952880859375,-0.5844268798828125,57321.069553375004
-0.001617431640625,-0.8144683837890625,-0.611602783203125,57321.089583375004
0.0162353515625,-0.8122100830078125,-0.5945892333984375,57321.109612375
0.02197265625,-0.816192626953125,-0.567047119140625,57321.129642375
0.0066375732421875,-0.82464599609375,-0.5636749267578125,57321.149672375
0.0059356689453125,-0.8232269287109375,-0.5669097900390625,57321.169701375
0.020660400390625,-0.8132171630859375,-0.5630340576171875,57321.189731375
0.032958984375,-0.810638427734375,-0.5575103759765625,57321.209760375
0.0323638916015625,-0.81341552734375,-0.5511016845703125,57321.229790375
0.0290069580078125,-0.8174285888671875,-0.542236328125,57321.24981937501
0.019134521484375,-0.8224639892578125,-0.5342864990234375,57321.26984937501
0.00543212890625,-0.825958251953125,-0.54302978515625,57321.289878375006
-0.00189208984375,-0.8219757080078125,-0.562164306640625,57321.309908375006
0.003692626953125,-0.8152008056640625,-0.5655975341796875,57321.329938375005
0.0051116943359375,-0.8154754638671875,-0.5574493408203125,57321.349967375005
-0.0040283203125,-0.8202667236328125,-0.5538482666015625,57321.369997375004
-0.0134735107421875,-0.823089599609375,-0.563995361328125,57321.390026375004
-0.017333984375,-0.8214874267578125,-0.5757598876953125,57321.410056375
-0.013092041015625,-0.81707763671875,-0.5873870849609375,57321.430085375
-0.00457763671875,-0.8185577392578125,-0.58404541015625,57321.450115375
-0.0011138916015625,-0.8210601806640625,-0.574249267578125,57321.470144375
-0.0125885009765625,-0.823760986328125,-0.5696563720703125,57321.490174375
-0.0322265625,-0.828765869140625,-0.5770111083984375,57321.510204375
-0.03765869140625,-0.834136962890625,-0.5757293701171875,57321.530233375
-0.0279083251953125,-0.8308563232421875,-0.5628814697265625,57321.550263375
-0.014892578125,-0.8259735107421875,-0.55963134765625,57321.57029216667
-0.0116729736328125,-0.8219146728515625,-0.5642852783203125,57321.59032216667
-0.0267333984375,-0.821441650390625,-0.57403564453125,57321.61035116667
-0.036407470703125,-0.826263427734375,-0.5727081298828125,57321.63038116667
-0.0267181396484375,-0.8278045654296875,-0.562744140625,57321.65041116667
-0.016571044921875,-0.828369140625,-0.5740509033203125,57321.67044016667
-0.01873779296875,-0.827606201171875,-0.5997467041015625,57321.69047016667
-0.0167388916015625,-0.8236541748046875,-0.616485595703125,57321.71049916667
-0.0145721435546875,-0.8252410888671875,-0.6049041748046875,57321.73052916667
-0.0155181884765625,-0.833343505859375,-0.5728912353515625,57321.75055816667
-0.0105743408203125,-0.842254638671875,-0.5602569580078125,57321.77058816667
-0.0230560302734375,-0.83502197265625,-0.58685302734375,57321.79061716667
-0.02789306640625,-0.8192138671875,-0.607025146484375,57321.81064716667
-0.02459716796875,-0.819854736328125,-0.575103759765625,57321.83067716667
-0.0251922607421875,-0.8271484375,-0.533721923828125,57321.85070616667
-0.0319976806640625,-0.840576171875,-0.524078369140625,57321.87073616667
-0.03033447265625,-0.838226318359375,-0.531341552734375,57321.89076516667
-0.022796630859375,-0.827606201171875,-0.5417938232421875,57321.910795166674
-0.01409912109375,-0.8279571533203125,-0.5584259033203125,57321.93082416667
0.0015716552734375,-0.83184814453125,-0.551605224609375,57321.95085416667
0.0081024169921875,-0.832611083984375,-0.5406951904296875,57321.97088316667
0.0098114013671875,-0.8292083740234375,-0.5460357666015625,57321.99091316667
0.01495361328125,-0.8202362060546875,-0.554412841796875,57322.01094316667
0.0241546630859375,-0.81781005859375,-0.5569305419921875,57322.03097216667
0.027008056640625,-0.8214569091796875,-0.54974365234375,57322.05100216667
0.020660400390625,-0.8208160400390625,-0.5569915771484375,57322.07103116667
0.017059326171875,-0.8201904296875,-0.5826873779296875,57322.09106116667
0.01568603515625,-0.8131561279296875,-0.5742950439453125,57322.11109016667
0.0248260498046875,-0.8175048828125,-0.537261962890625,57322.13112016667
0.0195770263671875,-0.83062744140625,-0.5069580078125,57322.15114916667
0.01080322265625,-0.83587646484375,-0.51177978515625,57322.17117916667
0.00726318359375,-0.8381805419921875,-0.5423736572265625,57322.19120916667
0.0122833251953125,-0.8355560302734375,-0.5726318359375,57322.21123816667
0.0178070068359375,-0.8373870849609375,-0.5843658447265625,57322.23126816667
0.0176849365234375,-0.84283447265625,-0.588409423828125,57322.25129716667
0.0216217041015625,-0.8450775146484375,-0.571563720703125,57322.27132716667
0.022430419921875,-0.840057373046875,-0.567840576171875,57322.29135616667
0.0117034912109375,-0.83056640625,-0.5981597900390625,57322.31138616667
0.013153076171875,-0.8184356689453125,-0.6134490966796875,57322.33141616667
0.02374267578125,-0.819366455078125,-0.5839080810546875,57322.35144516667
0.028961181640625,-0.8224639892578125,-0.5582122802734375,57322.37147516667
0.023895263671875,-0.817169189453125,-0.567138671875,57322.39150416667
0.0478515625,-0.814544677734375,-0.5401611328125,57322.41153416667
0.0647125244140625,-0.833770751953125,-0.541168212890625,57322.43156316667
0.051544189453125,-0.7869873046875,-0.5315399169921875,57322.45159316667
0.143798828125,-0.869232177734375,-0.376251220703125,57322.47162216667
0.0792999267578125,-0.8182525634765625,-0.45849609375,57322.49165216667
0.0424957275390625,-0.811920166015625,-0.675323486328125,57322.51168216667
0.0038604736328125,-0.8372955322265625,-0.67529296875,57322.53171116667
